Folder: TRANK/examples/example_3_experimental_data_with_mixed_polarizations

Note: README.md
# TRANK
Originally conceived to permit the high-throughput screening of optical meta-materials, the TRANK library is designed to use multiple amplitude based spectra such as transmittance, reflectance, absorptance for thin films and multilayered stacks to find the refractive index (n) and extinction coefficient (k) spectra. The software permits mixing of measurements from different films/stacks and illumination conditions to find the refractive indices of an unknown material. Additionally, we have implemented several (new) methods to avoid physically unrealistic complex branches which normally plague the fitting of the indices from amplitude based spectra.

The name is an acronym of transmittance, reflectance, absorptance to n and k.

File: Transmission_10nm_CuAg_on_silica_substrate.txt
Wavelength (nm)	Transmission (%)
300	63.7094
303	66.7768
306	69.9657
309	73.0668
312	75.8535
315	78.1814
318	79.9922
321	81.2386
324	81.9027
327	82.0242
330	81.6785
333	81.0059
336	80.1537
339	79.2464
342	78.3815
345	77.6319
348	77.0448
351	76.6037
354	76.2837
357	76.0661
360	75.935
363	75.8767
366	75.8788
369	75.9274
372	76.0014
375	76.0802
378	76.1463
381	76.1858
384	76.1871
387	76.1412
390	76.0421
393	75.8923
396	75.706
399	75.4973
402	75.2776
405	75.0567
408	74.842
411	74.6392
414	74.4528
417	74.2851
420	74.1331
423	73.9871
426	73.8388
429	73.6809
432	73.5082
435	73.3163
438	73.1019
441	72.8626
444	72.5969
447	72.3045
450	71.9877
453	71.6532
456	71.3079
459	70.9572
462	70.6054
465	70.256
468	69.9121
471	69.5762
474	69.2499
477	68.935
480	68.6327
483	68.3433
486	68.0657
489	67.798
492	67.5382
495	67.2848
498	67.0366
501	66.7924
504	66.5514
507	66.3128
510	66.0758
513	65.8399
516	65.6047
519	65.3697
522	65.1349
525	64.9001
528	64.6659
531	64.4334
534	64.2033
537	63.9761
540	63.7522
543	63.532
546	63.3157
549	63.1033
552	62.8951
555	62.6908
558	62.4906
561	62.2941
564	62.1012
567	61.9114
570	61.7243
573	61.5394
576	61.3555
579	61.1704
582	60.9821
585	60.7887
588	60.5889
591	60.3818
594	60.1664
597	59.942
600	59.7082
603	59.4646
606	59.211
609	58.9473
612	58.6732
615	58.3892
618	58.0956
621	57.7927
624	57.481
627	57.1611
630	56.8336
633	56.4992
636	56.1594
639	55.816
642	55.4711
645	55.126
648	54.782
651	54.4401
654	54.1012
657	53.766
660	53.4352
663	53.1093
666	52.7888
669	52.4741
672	52.1653
675	51.8628
678	51.5666
681	51.2768
684	50.9936
687	50.7169
690	50.4468
693	50.1833
696	49.9261
699	49.6753
702	49.4305
705	49.1916
708	48.9584
711	48.7303
714	48.5068
717	48.2875
720	48.072
723	47.8599
726	47.6509
729	47.4446
732	47.241
735	47.0396
738	46.8405
741	46.6433
744	46.4479
747	46.2542
750	46.062
753	45.8713
756	45.6818
759	45.4936
762	45.3064
765	45.1204
768	44.9353
771	44.7512
774	44.5679
777	44.3854
780	44.2038
783	44.0229
786	43.8427
789	43.6632
792	43.4845
795	43.3064
798	43.129
801	42.9523
804	42.7763
807	42.6011
810	42.4267
813	42.2531
816	42.0804
819	41.9086
822	41.7377
825	41.5676
828	41.3985
831	41.2303
834	41.063
837	40.8967
840	40.7312
843	40.5667
846	40.4031
849	40.2405
852	40.0787
855	39.9179
858	39.7579
861	39.5989
864	39.4408
867	39.2835
870	39.1271
873	38.9716
876	38.817
879	38.6632
882	38.5102
885	38.358
888	38.2067
891	38.0561
894	37.9064
897	37.7574
900	37.6092
903	37.4617
906	37.3149
909	37.1689
912	37.0235
915	36.8788
918	36.7348
921	36.5913
924	36.4484
927	36.306
930	36.1641
933	36.0226
936	35.8814
939	35.7406
942	35.6001
945	35.4599
948	35.3199
951	35.1802
954	35.0408
957	34.9017
960	34.7627
963	34.624
966	34.4856
969	34.3474
972	34.2094
975	34.0717
978	33.9342
981	33.7969
984	33.66
987	33.5232
990	33.3868
993	33.2506
996	33.1147
999	32.9791
1000	32.934